'ibeam010.ng1' 'Mar 27 2002 17:55' 'I'      30000.    1  'NEUT'   51  'RAW'
  Filename         Date            Scan       Mon    Prf  Base   #pts  Type
ibeam                                             
 15  20  40  99   0  0  0     1.5402     0.00000 0.00000   0.00000    2
 Collimation      Mosaic    Wavelength   T-Start   Incr.   H-field #Det
  1       0.80000    0.01600    1.60000
  2       0.80000    0.01600    1.60000
  3       0.00000    0.00000    0.00000
  4       0.00000    0.00000    0.00000
  5       2.40000    0.04800    4.80000
  6       3.20000    0.06400    6.40000
 Mot:    Start       Step      End
     A1         A2         A5         A6       MIN       COUNTS 
    0.80000    0.80000    2.40000    3.20000    0.10       19790
    0.81600    0.81600    2.44800    3.26400    0.10       20762
    0.83200    0.83200    2.49600    3.32800    0.10       21071
    0.84800    0.84800    2.54400    3.39200    0.10       21405
    0.86400    0.86400    2.59200    3.45600    0.08       21679
    0.88000    0.88000    2.64000    3.52000    0.08       22606
    0.89600    0.89600    2.68800    3.58400    0.08       22630
    0.91200    0.91200    2.73600    3.64800    0.08       23755
    0.92800    0.92800    2.78400    3.71200    0.08       24029
    0.94400    0.94400    2.83200    3.77600    0.08       24194
    0.96000    0.96000    2.88000    3.84000    0.08       24611
    0.97600    0.97600    2.92800    3.90400    0.08       24877
    0.99200    0.99200    2.97600    3.96800    0.08       25655
    1.00800    1.00800    3.02400    4.03200    0.07       25932
    1.02400    1.02400    3.07200    4.09600    0.08       26141
    1.04000    1.04000    3.12000    4.16000    0.07       26713
    1.05600    1.05600    3.16800    4.22400    0.08       27180
    1.07200    1.07200    3.21600    4.28800    0.08       27090
    1.08800    1.08800    3.26400    4.35200    0.07       27762
    1.10400    1.10400    3.31200    4.41600    0.07       27787
    1.12000    1.12000    3.36000    4.48000    0.07       28707
    1.13600    1.13600    3.40800    4.54400    0.07       29063
    1.15200    1.15200    3.45600    4.60800    0.07       29175
    1.16800    1.16800    3.50400    4.67200    0.07       29501
    1.18400    1.18400    3.55200    4.73600    0.07       29985
    1.20000    1.20000    3.60000    4.80000    0.07       30486
    1.21600    1.21600    3.64800    4.86400    0.05       30820
    1.23200    1.23200    3.69600    4.92800    0.07       31002
    1.24800    1.24800    3.74400    4.99200    0.07       31252
    1.26400    1.26400    3.79200    5.05600    0.05       32089
    1.28000    1.28000    3.84000    5.12000    0.07       32319
    1.29600    1.29600    3.88800    5.18400    0.07       32445
    1.31200    1.31200    3.93600    5.24800    0.07       33030
    1.32800    1.32800    3.98400    5.31200    0.07       33835
    1.34400    1.34400    4.03200    5.37600    0.07       33788
    1.36000    1.36000    4.08000    5.44000    0.05       34353
    1.37600    1.37600    4.12800    5.50400    0.07       34466
    1.39200    1.39200    4.17600    5.56800    0.05       35035
    1.40800    1.40800    4.22400    5.63200    0.05       35170
    1.42400    1.42400    4.27200    5.69600    0.05       35643
    1.44000    1.44000    4.32000    5.76000    0.07       36627
    1.45600    1.45600    4.36800    5.82400    0.07       36997
    1.47200    1.47200    4.41600    5.88800    0.05       36532
    1.48800    1.48800    4.46400    5.95200    0.05       37848
    1.50400    1.50400    4.51200    6.01600    0.05       37820
    1.52000    1.52000    4.56000    6.08000    0.05       37806
    1.53600    1.53600    4.60800    6.14400    0.05       37971
    1.55200    1.55200    4.65600    6.20800    0.05       38690
    1.56800    1.56800    4.70400    6.27200    0.05       38826
    1.58400    1.58400    4.75200    6.33600    0.05       39061
    1.60000    1.60000    4.80000    6.40000    0.05       39734
