'gsip4012.ng1' 'Mar 18 2002 21:16' 'I'     300000.    1  'NEUT'   51  'RAW'
  Filename         Date            Scan       Mon    Prf  Base   #pts  Type
gsip4                                             
 15  20  40  99   0  0  0     1.5402     0.00000 0.00000   0.00000    2
 Collimation      Mosaic    Wavelength   T-Start   Incr.   H-field #Det
  1       0.80000    0.01600    1.60000
  2       0.80000    0.01600    1.60000
  3       2.00000    0.04000    4.00000
  4       4.00000    0.08000    8.00000
  5       2.40000    0.04800    4.80000
  6       3.20000    0.06400    6.40000
 Mot:    Start       Step      End
     A1         A2         A3         A4       MIN       COUNTS 
    0.80000    0.80000    2.00000    4.00000    0.95          40
    0.81600    0.81600    2.04000    4.08000    0.93          32
    0.83200    0.83200    2.08000    4.16000    0.93          35
    0.84800    0.84800    2.12000    4.24000    0.90          33
    0.86400    0.86400    2.16000    4.32000    0.88          50
    0.88000    0.88000    2.20000    4.40000    0.87          46
    0.89600    0.89600    2.24000    4.48000    0.85          72
    0.91200    0.91200    2.28000    4.56000    0.85          67
    0.92800    0.92800    2.32000    4.64000    0.83          74
    0.94400    0.94400    2.36000    4.72000    0.80          79
    0.96000    0.96000    2.40000    4.80000    0.80          71
    0.97600    0.97600    2.44000    4.88000    0.78          75
    0.99200    0.99200    2.48000    4.96000    0.77          54
    1.00800    1.00800    2.52000    5.04000    0.77          68
    1.02400    1.02400    2.56000    5.12000    0.75          52
    1.04000    1.04000    2.60000    5.20000    0.75          41
    1.05600    1.05600    2.64000    5.28000    0.73          59
    1.07200    1.07200    2.68000    5.36000    0.73          48
    1.08800    1.08800    2.72000    5.44000    0.70          49
    1.10400    1.10400    2.76000    5.52000    0.70          29
    1.12000    1.12000    2.80000    5.60000    0.70          22
    1.13600    1.13600    2.84000    5.68000    0.68          18
    1.15200    1.15200    2.88000    5.76000    0.67          21
    1.16800    1.16800    2.92000    5.84000    0.67          26
    1.18400    1.18400    2.96000    5.92000    0.67          19
    1.20000    1.20000    3.00000    6.00000    0.67          26
    1.21600    1.21600    3.04000    6.08000    0.65          22
    1.23200    1.23200    3.08000    6.16000    0.63          29
    1.24800    1.24800    3.12000    6.24000    0.63          35
    1.26400    1.26400    3.16000    6.32000    0.63          36
    1.28000    1.28000    3.20000    6.40000    0.60          45
    1.29600    1.29600    3.24000    6.48000    0.62          41
    1.31200    1.31200    3.28000    6.56000    0.60          55
    1.32800    1.32800    3.32000    6.64000    0.60          55
    1.34400    1.34400    3.36000    6.72000    0.58          59
    1.36000    1.36000    3.40000    6.80000    0.58          50
    1.37600    1.37600    3.44000    6.88000    0.57          55
    1.39200    1.39200    3.48000    6.96000    0.57          38
    1.40800    1.40800    3.52000    7.04000    0.57          58
    1.42400    1.42400    3.56000    7.12000    0.55          54
    1.44000    1.44000    3.60000    7.20000    0.55          51
    1.45600    1.45600    3.64000    7.28000    0.53          42
    1.47200    1.47200    3.68000    7.36000    0.55          31
    1.48800    1.48800    3.72000    7.44000    0.55          40
    1.50400    1.50400    3.76000    7.52000    0.53          31
    1.52000    1.52000    3.80000    7.60000    0.52          18
    1.53600    1.53600    3.84000    7.68000    0.53          21
    1.55200    1.55200    3.88000    7.76000    0.52          16
    1.56800    1.56800    3.92000    7.84000    0.52          12
    1.58400    1.58400    3.96000    7.92000    0.52           9
    1.60000    1.60000    4.00000    8.00000    0.50          11
