'gsip4013.ng1' 'Mar 18 2002 21:56' 'I'     500000.    1  'NEUT'   64  'RAW'
  Filename         Date            Scan       Mon    Prf  Base   #pts  Type
gsip4                                             
 15  20  40  99   0  0  0     1.5402     0.00000 0.00000   0.00000    2
 Collimation      Mosaic    Wavelength   T-Start   Incr.   H-field #Det
  1       1.60000    0.01600    2.60800
  2       1.60000    0.01600    2.60800
  3       4.00000    0.04000    6.52000
  4       8.00000    0.08000   13.04000
  5       4.80000    0.04800    7.82400
  6       6.40000    0.06400   10.43200
 Mot:    Start       Step      End
     A1         A2         A3         A4       MIN       COUNTS 
    1.60000    1.60000    4.00000    8.00000    0.83          11
    1.61600    1.61600    4.04000    8.08000    0.82          10
    1.63200    1.63200    4.08000    8.16000    0.82           9
    1.64800    1.64800    4.12000    8.24000    0.82           4
    1.66400    1.66400    4.16000    8.32000    0.80           8
    1.68000    1.68000    4.20000    8.40000    0.80           6
    1.69600    1.69600    4.24000    8.48000    0.78           4
    1.71200    1.71200    4.28000    8.56000    0.77           6
    1.72800    1.72800    4.32000    8.64000    0.78           5
    1.74400    1.74400    4.36000    8.72000    0.75          11
    1.76000    1.76000    4.40000    8.80000    0.77           8
    1.77600    1.77600    4.44000    8.88000    0.75           8
    1.79200    1.79200    4.48000    8.96000    0.75           9
    1.80800    1.80800    4.52000    9.04000    0.75          13
    1.82400    1.82400    4.56000    9.12000    0.73          11
    1.84000    1.84000    4.60000    9.20000    0.73          14
    1.85600    1.85600    4.64000    9.28000    0.72          18
    1.87200    1.87200    4.68000    9.36000    0.72          16
    1.88800    1.88800    4.72000    9.44000    0.70          17
    1.90400    1.90400    4.76000    9.52000    0.70          21
    1.92000    1.92000    4.80000    9.60000    0.70          13
    1.93600    1.93600    4.84000    9.68000    0.68          23
    1.95200    1.95200    4.88000    9.76000    0.68          13
    1.96800    1.96800    4.92000    9.84000    0.68          22
    1.98400    1.98400    4.96000    9.92000    0.67          12
    2.00000    2.00000    5.00000   10.00000    0.68          18
    2.01600    2.01600    5.04000   10.08000    0.67          20
    2.03200    2.03200    5.08000   10.16000    0.67          19
    2.04800    2.04800    5.12000   10.24000    0.65          16
    2.06400    2.06400    5.16000   10.32000    0.65          27
    2.08000    2.08000    5.20000   10.40000    0.65          12
    2.09600    2.09600    5.24000   10.48000    0.63          18
    2.11200    2.11200    5.28000   10.56000    0.65          12
    2.12800    2.12800    5.32000   10.64000    0.65          17
    2.14400    2.14400    5.36000   10.72000    0.63          20
    2.16000    2.16000    5.40000   10.80000    0.63          13
    2.17600    2.17600    5.44000   10.88000    0.62          10
    2.19200    2.19200    5.48000   10.96000    0.62          15
    2.20800    2.20800    5.52000   11.04000    0.62          16
    2.22400    2.22400    5.56000   11.12000    0.60          12
    2.24000    2.24000    5.60000   11.20000    0.62           9
    2.25600    2.25600    5.64000   11.28000    0.62           6
    2.27200    2.27200    5.68000   11.36000    0.60           7
    2.28800    2.28800    5.72000   11.44000    0.60           5
    2.30400    2.30400    5.76000   11.52000    0.58           7
    2.32000    2.32000    5.80000   11.60000    0.60           6
    2.33600    2.33600    5.84000   11.68000    0.60           3
    2.35200    2.35200    5.88000   11.76000    0.58           5
    2.36800    2.36800    5.92000   11.84000    0.58           5
    2.38400    2.38400    5.96000   11.92000    0.57           9
    2.40000    2.40000    6.00000   12.00000    0.57           5
    2.41600    2.41600    6.04000   12.08000    0.57           5
    2.43200    2.43200    6.08000   12.16000    0.57           4
    2.44800    2.44800    6.12000   12.24000    0.55           9
    2.46400    2.46400    6.16000   12.32000    0.57           6
    2.48000    2.48000    6.20000   12.40000    0.55           5
    2.49600    2.49600    6.24000   12.48000    0.55           7
    2.51200    2.51200    6.28000   12.56000    0.55           4
    2.52800    2.52800    6.32000   12.64000    0.53           5
    2.54400    2.54400    6.36000   12.72000    0.55           5
    2.56000    2.56000    6.40000   12.80000    0.55          11
    2.57600    2.57600    6.44000   12.88000    0.53           5
    2.59200    2.59200    6.48000   12.96000    0.53           2
    2.60800    2.60800    6.52000   13.04000    0.52           6
